<DocumentManifest xmlns="http://hl7.org/fhir">
   <meta>
      <versionId value="1" />
   </meta>
   <language value="de-CH" />
   <contained>
      <Basic xmlns="http://hl7.org/fhir">
         <id value="1" />
         <code>
            <coding>
               <code value="CHE" />
            </coding>
         </code>
      </Basic>
   </contained>
   <contained>
      <Basic xmlns="http://hl7.org/fhir">
         <id value="2" />
         <code>
            <coding>
               <system value="urn:oid:1.3.6.1.4.1.19376.1.5.3.1.1.13.1.4" />
               <code value="patient" />
            </coding>
         </code>
      </Basic>
   </contained>
   <contained>
      <Basic xmlns="http://hl7.org/fhir">
         <id value="3" />
         <code>
            <coding>
               <system value="urn:oid:2.16.840.1.113883.5.25" />
               <code value="N" />
               <display value="Normal" />
            </coding>
         </code>
      </Basic>
   </contained>
   <contained>
      <Patient xmlns="http://hl7.org/fhir">
         <id value="4" />
         <identifier>
            <system value="urn:oid:2.16.756.5.30.999999999999" />
            <value value="898989" />
         </identifier>
         <name>
            <family value="Tigrinja" />
            <given value="Sesuna" />
         </name>
         <telecom>
            <system value="phone" />
            <value value="tel:+41.32.685.12.34" />
            <use value="home" />
         </telecom>
         <telecom>
            <system value="phone" />
            <value value="tel:+41.32.123.77.88" />
            <use value="work" />
         </telecom>
         <gender value="female" />
         <birthDate value="2000-04-04" />
         <address>
            <use value="home" />
            <line value="Leidensweg 10" />
            <city value="Specimendorf" />
            <postalCode value="9876" />
            <country value="CHE" />
         </address>
         <managingOrganization>
            <reference value="#5" />
         </managingOrganization>
      </Patient>
   </contained>
   <contained>
      <Organization xmlns="http://hl7.org/fhir">
         <id value="5" />
         <identifier>
            <system value="urn:oid:2.51.1.3" />
            <value value="7609999999999" />
         </identifier>
         <name value="Gruppenpraxis CH" />
         <telecom>
            <system value="phone" />
            <value value="tel:+41.32.234.55.66" />
            <use value="work" />
         </telecom>
         <telecom>
            <system value="fax" />
            <value value="fax:+41.32.234.66.77" />
            <use value="work" />
         </telecom>
         <telecom>
            <system value="email" />
            <value value="mailto:bereit@gruppenpraxis.ch" />
            <use value="work" />
         </telecom>
         <telecom>
            <system value="url" />
            <value value="http://www.gruppenpraxis.ch" />
            <use value="work" />
         </telecom>
         <address>
            <use value="work" />
            <line value="Doktorgasse 2" />
            <city value="Musterhausen" />
            <postalCode value="8888" />
            <country value="CHE" />
         </address>
      </Organization>
   </contained>
   <contained>
      <Person xmlns="http://hl7.org/fhir">
         <id value="6" />
         <identifier>
            <system value="urn:oid:2.51.1.3" />
            <value value="7607777777777" />
         </identifier>
         <name>
            <family value="Bereit" />
            <given value="Allzeit" />
            <prefix value="Dr. med." />
            <suffix value="Facharzt für Allgemeine Medizin" />
         </name>
         <telecom>
            <system value="phone" />
            <value value="tel:+41.32.234.55.66" />
         </telecom>
         <telecom>
            <system value="fax" />
            <value value="fax:+41.32.234.66.77" />
         </telecom>
         <telecom>
            <system value="email" />
            <value value="mailto:bereit@gruppenpraxis.ch" />
         </telecom>
         <telecom>
            <system value="url" />
            <value value="http://www.gruppenpraxis.ch" />
         </telecom>
         <address>
            <use value="work" />
            <line value="Doktorgasse 2" />
            <city value="Musterhausen" />
            <postalCode value="8888" />
         </address>
         <managingOrganization>
            <reference value="#5" />
         </managingOrganization>
      </Person>
   </contained>
   <contained>
      <Condition xmlns="http://hl7.org/fhir">
         <id value="7" />
         <identifier>
            <system value="urn:oid:1.3.6.1.4.1.19376.1.5.3.1.1.13.1.4" />
            <value value="3d7be37c-5d72-2b5c-48e4-b23d252a61b4" />
         </identifier>
         <clinicalStatus value="resolved" />
         <verificationStatus value="unknown" />
         <code>
            <coding>
               <system value="urn:oid:2.16.756.5.30.1.127.3.3.1" />
               <code value="114004" />
               <display value="Schweres Asthma: bei verlängerter oder häufiger Behandlung mit oralen Steroiden" />
            </coding>
         </code>
         <subject>
            <reference value="#4" />
         </subject>
         <assertedDate value="2014-01-12T00:00:00+01:00" />
         <note>
            <text value="Asthma" />
         </note>
      </Condition>
   </contained>
   <contained>
      <Condition xmlns="http://hl7.org/fhir">
         <id value="8" />
         <identifier>
            <system value="urn:oid:1.3.6.1.4.1.19376.1.5.3.1.1.13.1.4" />
            <value value="0a29f554-aa28-28aa-6b46-fd8f89083ccb" />
         </identifier>
         <clinicalStatus value="resolved" />
         <verificationStatus value="unknown" />
         <code>
            <coding>
               <system value="urn:oid:2.16.840.1.113883.6.96" />
               <code value="282291009" />
               <display value="1. Unklare Monoarthritis im rechten Knie&amp;lt;br />- DD infektiös, Kristall-Arthropathie, Hämarthros&amp;lt;br />- Rx Knie rechts 5.8.12: keine ossäre Läsionen" />
            </coding>
         </code>
         <subject>
            <reference value="#4" />
         </subject>
         <assertedDate value="2014-01-12T00:00:00+01:00" />
         <note>
            <text value="Unklare Monoarthritis im rechten Knie" />
         </note>
      </Condition>
   </contained>
   <contained>
      <Condition xmlns="http://hl7.org/fhir">
         <id value="9" />
         <identifier>
            <system value="urn:oid:1.3.6.1.4.1.19376.1.5.3.1.1.13.1.4" />
            <value value="3df71218-5df4-2b5c-defd-485c3d9a24e7" />
         </identifier>
         <clinicalStatus value="resolved" />
         <verificationStatus value="unknown" />
         <code>
            <coding>
               <system value="urn:oid:2.16.840.1.113883.6.96" />
               <code value="38907003" />
               <display value="H/O: chickenpox" />
            </coding>
         </code>
         <subject>
            <reference value="#4" />
         </subject>
         <assertedDate value="2012-12-14T00:00:00+01:00" />
         <note>
            <text value="Windpocken" />
         </note>
      </Condition>
   </contained>
   <contained>
      <Condition xmlns="http://hl7.org/fhir">
         <id value="10" />
         <identifier>
            <system value="urn:oid:1.3.6.1.4.1.19376.1.5.3.1.1.13.1.4" />
            <value value="09521b2a-a94c-28a0-edee-01f6850be3e7" />
         </identifier>
         <clinicalStatus value="active" />
         <verificationStatus value="unknown" />
         <code>
            <coding>
               <system value="urn:oid:2.16.840.1.113883.6.96" />
               <code value="303300008" />
               <display value="Egg protein (substance)" />
            </coding>
         </code>
         <subject>
            <reference value="#4" />
         </subject>
         <assertedDate value="2012-12-13T00:00:00+01:00" />
         <note>
            <text value="Hühnereiweiss" />
         </note>
      </Condition>
   </contained>
   <contained>
      <Basic xmlns="http://hl7.org/fhir">
         <id value="11" />
         <code>
            <coding>
               <system value="http://hl7.org/fhir/data-absent-reason" />
               <code value="astext" />
               <display value="Unklare Monoarthritis im rechten Knie&lt;br />- DD infektiös, Kristall-­‐Arthropathie, Hämarthros&lt;br />‐ Rx Knie rechts 5.8.12: keine ossäre Läsionen" />
            </coding>
         </code>
      </Basic>
   </contained>
   <contained>
      <Basic xmlns="http://hl7.org/fhir">
         <id value="12" />
         <code>
            <coding>
               <system value="http://hl7.org/fhir/data-absent-reason" />
               <code value="astext" />
               <display value="keine Reanimation&lt;br />keine Beatmung&lt;br />keine Lebensverlängernden Massnahmen" />
            </coding>
         </code>
      </Basic>
   </contained>
   <contained>
      <List xmlns="http://hl7.org/fhir">
         <id value="13" />
         <extension url="urn:ehealth_connector:FhirExtension:urnUseAsCodedVitalSignList">
            <valueTime value="20150101100000+0100" />
         </extension>
         <identifier>
            <system value="urn:oid:2.16.756.5.30.1.1.1.1.3.1.1" />
            <value value="0a14fc1c-aa14-28aa-cfbc-5779d9f5d642" />
         </identifier>
         <status value="current" />
         <mode value="snapshot" />
         <entry>
            <extension url="urn:ehealth_connector:FhirExtension:useAsAuthor">
               <valueTime value="20160413210350+0200" />
            </extension>
            <item>
               <reference value="#6" />
            </item>
         </entry>
         <entry>
            <extension url="urn:ehealth_connector:FhirExtension:useAsCodedVitalSignObservation">
               <valueString value="dummy" />
            </extension>
            <item>
               <reference value="#14" />
            </item>
         </entry>
         <entry>
            <extension url="urn:ehealth_connector:FhirExtension:useAsCodedVitalSignObservation">
               <valueString value="dummy" />
            </extension>
            <item>
               <reference value="#15" />
            </item>
         </entry>
      </List>
   </contained>
   <contained>
      <Observation xmlns="http://hl7.org/fhir">
         <id value="14" />
         <status value="final" />
         <code>
            <coding>
               <system value="urn:oid:2.16.840.1.113883.6.1" />
               <code value="8716-3" />
               <display value="Vital signs" />
            </coding>
         </code>
         <effectiveDateTime value="2015-01-01T10:00:00+01:00" />
         <component>
            <code>
               <coding>
                  <system value="urn:oid:2.16.840.1.113883.6.1" />
                  <code value="8302-2" />
                  <display value="Body height" />
               </coding>
            </code>
            <valueQuantity>
               <value value="180" />
               <unit value="cm" />
            </valueQuantity>
         </component>
         <component>
            <code>
               <coding>
                  <system value="urn:oid:2.16.840.1.113883.6.1" />
                  <code value="3141-9" />
                  <display value="Body weight Measured" />
               </coding>
            </code>
            <valueQuantity>
               <value value="80" />
               <unit value="kg" />
            </valueQuantity>
         </component>
      </Observation>
   </contained>
   <contained>
      <Observation xmlns="http://hl7.org/fhir">
         <id value="15" />
         <status value="final" />
         <code>
            <coding>
               <system value="urn:oid:2.16.840.1.113883.6.1" />
               <code value="8716-3" />
               <display value="Vital signs" />
            </coding>
         </code>
         <effectiveDateTime value="2015-01-01T10:00:00+01:00" />
         <component>
            <code>
               <coding>
                  <system value="urn:oid:2.16.840.1.113883.6.1" />
                  <code value="8480-6" />
                  <display value="Systolic blood pressure" />
               </coding>
            </code>
            <valueQuantity>
               <value value="120" />
               <unit value="mm[Hg]" />
            </valueQuantity>
         </component>
         <component>
            <code>
               <coding>
                  <system value="urn:oid:2.16.840.1.113883.6.1" />
                  <code value="8462-4" />
                  <display value="Diastolic blood pressure" />
               </coding>
            </code>
            <valueQuantity>
               <value value="80" />
               <unit value="mm[Hg]" />
            </valueQuantity>
         </component>
      </Observation>
   </contained>
   <contained>
      <Observation xmlns="http://hl7.org/fhir">
         <id value="16" />
         <status value="unknown" />
         <code>
            <coding>
               <system value="urn:oid:2.16.840.1.113883.6.1" />
               <code value="48767-8" />
               <display value="Annotation comment [Interpretation] Narrative" />
            </coding>
         </code>
         <comment value="Die Schulabgängerin, welche nicht über eine Versichertenkarte verfügt, wird anlässlich der Schularztuntersuchung gemäss Impfempfehlung vom CDSS geimpft." />
      </Observation>
   </contained>
   <identifier>
      <system value="urn:oid:2.16.756.5.30.1.1.1.1" />
      <value value="0a14d7aa-aa14-28aa-6646-5779d9f5d642" />
   </identifier>
   <identifier>
      <system value="urn:oid:2.16.756.5.30.1.1.1.1" />
      <value value="0a14d7aa-aa14-28aa-6646-5779d9f5d642" />
   </identifier>
   <status value="current" />
   <created value="2017-04-24T00:00:00+02:00" />
   <content>
      <pReference>
         <display value="dummy" />
      </pReference>
   </content>
   <content>
      <pReference>
         <reference value="#1" />
      </pReference>
   </content>
   <content>
      <pReference>
         <reference value="#2" />
      </pReference>
   </content>
   <content>
      <pReference>
         <reference value="#3" />
      </pReference>
   </content>
   <content>
      <pReference>
         <reference value="#4" />
      </pReference>
   </content>
   <content>
      <extension url="urn:ehealth_connector:FhirExtension:useAsAuthor">
         <valueTime value="20160413210350+0200" />
      </extension>
      <pReference>
         <reference value="#6" />
      </pReference>
   </content>
   <content>
      <extension url="urn:ehealth_connector:FhirExtension:useAsCustodian">
         <valueString value="dummy" />
      </extension>
      <pReference>
         <reference value="#5" />
      </pReference>
   </content>
   <content>
      <extension url="urn:ehealth_connector:FhirExtension:useAsLegalAuthenticator">
         <valueTime value="20160413210350+0200" />
      </extension>
      <pReference>
         <reference value="#6" />
      </pReference>
   </content>
   <content>
      <extension url="urn:ehealth_connector:FhirExtension:useAsActiveProblemConcern">
         <valueString value="88df458e-08d6-2b02-b14b-c2570b7e3f96" />
      </extension>
      <pReference>
         <reference value="#7" />
      </pReference>
   </content>
   <content>
      <extension url="urn:ehealth_connector:FhirExtension:useAsEdDiagnosis">
         <valueDate value="2014-01-12" />
      </extension>
      <extension url="urn:ehealth_connector:FhirExtension:useAsEdDiagnosis">
         <valueString value="88df5876-08d6-2b02-5245-c2570b7e3f96" />
      </extension>
      <pReference>
         <reference value="#8" />
      </pReference>
   </content>
   <content>
      <extension url="urn:ehealth_connector:FhirExtension:useAsPastProblemConcern">
         <valueDate value="2016-04-13" />
      </extension>
      <extension url="urn:ehealth_connector:FhirExtension:useAsPastProblemConcern">
         <valueString value="88df52a4-08d6-2b02-da1d-c2570b7e3f96" />
      </extension>
      <pReference>
         <reference value="#9" />
      </pReference>
   </content>
   <content>
      <extension url="urn:ehealth_connector:FhirExtension:useAsAllergyProblemConcern">
         <valueDate value="2012-12-13" />
      </extension>
      <extension url="urn:ehealth_connector:FhirExtension:useAsAllergyProblemConcern">
         <valueString value="88df5448-08d6-2b02-4714-c2570b7e3f96" />
      </extension>
      <pReference>
         <reference value="#10" />
      </pReference>
   </content>
   <content>
      <extension url="urn:ehealth_connector:FhirExtension:useAsAllergyProblemConcern">
         <valueString value="dummy" />
      </extension>
      <pReference>
         <reference value="#11" />
      </pReference>
   </content>
   <content>
      <extension url="urn:ehealth_connector:FhirExtension:useAsAdvanceDirectives">
         <valueString value="dummy" />
      </extension>
      <pReference>
         <reference value="#12" />
      </pReference>
   </content>
   <content>
      <pReference>
         <reference value="#13" />
      </pReference>
   </content>
   <content>
      <extension url="urn:ehealth_connector:FhirExtension:useAsComment">
         <valueString value="dummy" />
      </extension>
      <pReference>
         <reference value="#16" />
      </pReference>
   </content>
</DocumentManifest>