<DocumentManifest xmlns="http://hl7.org/fhir">
   <meta>
      <versionId value="1" />
   </meta>
   <language value="de-CH" />
   <contained>
      <Basic xmlns="http://hl7.org/fhir">
         <id value="1" />
         <code>
            <coding>
               <code value="CHE" />
            </coding>
         </code>
      </Basic>
   </contained>
   <contained>
      <Basic xmlns="http://hl7.org/fhir">
         <id value="2" />
         <code>
            <coding>
               <system value="urn:oid:2.16.756.5.30.1.1.1.1" />
               <code value="patient" />
            </coding>
         </code>
      </Basic>
   </contained>
   <contained>
      <Patient xmlns="http://hl7.org/fhir">
         <id value="3" />
         <extension url="urn:ehealth_connector:FhirExtension:useAsNonLivingSubject">
            <valueString value="dummy" />
         </extension>
         <identifier>
            <system value="urn:oid:2.16.756.5.30.1.139" />
            <value value="434" />
         </identifier>
      </Patient>
   </contained>
   <contained>
      <Basic xmlns="http://hl7.org/fhir">
         <id value="4" />
         <code>
            <coding>
               <system value="urn:oid:2.16.840.1.113883.5.25" />
               <code value="N" />
               <display value="Normal" />
            </coding>
         </code>
      </Basic>
   </contained>
   <contained>
      <Patient xmlns="http://hl7.org/fhir">
         <id value="5" />
         <extension url="urn:ehealth_connector:FhirExtension:useAsNonLivingSubject">
            <valueString value="dummy" />
         </extension>
         <identifier>
            <system value="urn:oid:2.16.756.5.30.1.139" />
            <value value="434" />
         </identifier>
      </Patient>
   </contained>
   <contained>
      <Person xmlns="http://hl7.org/fhir">
         <id value="6" />
         <extension url="urn:ehealth_connector:FhirExtension:urnUseAsFunctionCode">
            <valueCoding>
               <system value="urn:oid:2.16.840.1.113883.2.9.6.2.7" />
               <version value="ISCO-08" />
               <code value="3212" />
               <display value="Medical and pathology laboratory technicians" />
            </valueCoding>
         </extension>
         <identifier>
            <system value="urn:oid:2.51.1.3" />
            <value value="7607777777777" />
         </identifier>
         <name>
            <family value="Bereit" />
            <given value="Allzeit" />
         </name>
         <telecom>
            <system value="phone" />
            <value value="tel:+41.32.234.55.66" />
            <use value="temp" />
         </telecom>
         <telecom>
            <system value="email" />
            <value value="mailto:info@gruppenpraxis.ch" />
            <use value="temp" />
         </telecom>
         <address>
            <use value="temp" />
            <line value="Doktorgasse 2" />
            <city value="Musterhausen" />
            <postalCode value="8888" />
            <country value="CHE" />
         </address>
         <managingOrganization>
            <reference value="#7" />
         </managingOrganization>
      </Person>
   </contained>
   <contained>
      <Organization xmlns="http://hl7.org/fhir">
         <id value="7" />
         <name value="Gruppenpraxis CH" />
      </Organization>
   </contained>
   <contained>
      <Organization xmlns="http://hl7.org/fhir">
         <id value="8" />
         <identifier>
            <system value="urn:oid:2.51.1.3" />
            <value value="7606666666666" />
         </identifier>
         <identifier>
            <system value="urn:oid:2.999" />
            <value value="RingversuchsNr" />
         </identifier>
         <identifier>
            <system value="urn:oid:2.16.756.5.30.1.123.100.2.1.1" />
            <value value="A000000" />
         </identifier>
         <name value="Gruppenpraxis CH" />
         <telecom>
            <system value="phone" />
            <value value="tel:+41.32.234.55.66" />
            <use value="temp" />
         </telecom>
         <telecom>
            <system value="fax" />
            <value value="fax:+41.32.234.66.77" />
            <use value="temp" />
         </telecom>
         <telecom>
            <system value="email" />
            <value value="mailto:bereit@gruppenpraxis.ch" />
            <use value="temp" />
         </telecom>
         <telecom>
            <system value="url" />
            <value value="http://www.gruppenpraxis.ch" />
            <use value="temp" />
         </telecom>
         <address>
            <use value="temp" />
            <line value="Doktorgasse 2" />
            <city value="Musterhausen" />
            <postalCode value="8888" />
         </address>
      </Organization>
   </contained>
   <contained>
      <Person xmlns="http://hl7.org/fhir">
         <id value="9" />
         <identifier>
            <system value="urn:oid:2.51.1.3" />
            <value value="7607777777777" />
         </identifier>
         <name>
            <family value="Bereit" />
            <given value="Allzeit" />
            <prefix value="Dr. med." />
            <suffix value="Facharzt für Allgemeine Medizin" />
         </name>
         <telecom>
            <system value="phone" />
            <value value="tel:+41.32.234.55.66" />
            <use value="temp" />
         </telecom>
         <telecom>
            <system value="email" />
            <value value="mailto:info@gruppenpraxis.ch" />
            <use value="temp" />
         </telecom>
         <address>
            <use value="temp" />
            <line value="Doktorgasse 2" />
            <city value="Musterhausen" />
            <postalCode value="8888" />
            <country value="CHE" />
         </address>
         <managingOrganization>
            <reference value="#10" />
         </managingOrganization>
      </Person>
   </contained>
   <contained>
      <Organization xmlns="http://hl7.org/fhir">
         <id value="10" />
         <name value="Gruppenpraxis CH" />
      </Organization>
   </contained>
   <contained>
      <Person xmlns="http://hl7.org/fhir">
         <id value="11" />
         <identifier>
            <system value="urn:oid:2.51.1.3" />
            <value value="7606666666666" />
         </identifier>
         <identifier>
            <system value="urn:oid:2.16.756.5.30.1.123.100.2.1.1" />
            <value value="A000000" />
         </identifier>
      </Person>
   </contained>
   <contained>
      <Person xmlns="http://hl7.org/fhir">
         <id value="12" />
         <identifier>
            <system value="urn:oid:2.51.1.3" />
            <value value="7605555555555" />
         </identifier>
         <identifier>
            <system value="urn:oid:2.16.756.5.30.1.123.100.2.1.1" />
            <value value="A555555" />
         </identifier>
      </Person>
   </contained>
   <contained>
      <Organization xmlns="http://hl7.org/fhir">
         <id value="13" />
         <identifier>
            <system value="urn:oid:2.51.1.3" />
            <value value="7601001326507" />
         </identifier>
         <name value="Centre Suisse de Contrôle de Qualité CSCQ" />
         <telecom>
            <system value="phone" />
            <value value="tel:+41.31.384.22.22" />
            <use value="temp" />
         </telecom>
         <address>
            <use value="work" />
            <line value="Chemin du Petit-Bel-Air 2" />
            <city value="Chêne-Bourg" />
            <postalCode value="1225" />
         </address>
      </Organization>
   </contained>
   <contained>
      <Basic xmlns="http://hl7.org/fhir">
         <id value="14" />
         <identifier>
            <system value="urn:oid:2.16.756.5.30.1.139" />
            <value value="5e87ef02-7e7e-2b7a-3fc3-afa0240dfded" />
         </identifier>
         <code>
            <coding>
               <system value="urn:oid:2.999" />
               <code value="dummy" />
               <display value="dummy code to make FHIR resource valid" />
            </coding>
         </code>
      </Basic>
   </contained>
   <contained>
      <Person xmlns="http://hl7.org/fhir">
         <id value="15" />
         <address>
            <use value="work" />
            <line value="Murtenstrasse 42" />
            <city value="Bern" />
            <postalCode value="3008" />
         </address>
      </Person>
   </contained>
   <contained>
      <Observation xmlns="http://hl7.org/fhir">
         <id value="16" />
         <status value="final" />
         <category>
            <coding>
               <system value="urn:oid:dummy" />
               <code value="dummy" />
               <display value="Befundgruppe: 18719-5 - Chemistry studies&lt;br />Zeitpunkt der Feststellungen: 06.04.2015 10:37&lt;br />&lt;br />&lt;table>&lt;tbody>&lt;tr>&lt;th>Pos AL&lt;/th>&lt;th>Bezeichnung&lt;/th>&lt;th>Resultat&lt;/th>&lt;th>Einheit&lt;/th>&lt;th>Referenzbereich&lt;/th>&lt;th>Interpretation&lt;/th>&lt;th>LOINC&lt;/th>&lt;th>Probenentnahme&lt;/th>&lt;th>Probeneingang&lt;/th>&lt;th>Kommentar&lt;/th>&lt;/tr>&lt;tr>&lt;!--Pos AL-->&lt;td>1574.00&lt;/td>&lt;!-- Bezeichnung -->&lt;td>Natrium&lt;/td>&lt;!--Resultat-->&lt;td>&lt;content ID='l1'>137&lt;/content>&lt;/td>&lt;!--Einheit-->&lt;td>mmol/L&lt;/td>&lt;!--Referenzbereich-->&lt;td>135 - 147&lt;/td>&lt;!--Interpretation-->&lt;td>N&lt;/td>&lt;!--LOINC-->&lt;td>2951-2&lt;/td>&lt;!--Probenentnahme-->&lt;td>&lt;content ID='sc1'>04.04.2015&lt;/content>&lt;/td>&lt;!--Probeneingang-->&lt;td>05.04.2015 15:34&lt;/td>&lt;!--Kommentar-->&lt;td>&lt;content ID='lc1'>Demo&lt;/content>&lt;/td>&lt;/tr>&lt;/tbody>&lt;/table>" />
            </coding>
         </category>
         <code>
            <coding>
               <system value="urn:oid:2.16.840.1.113883.6.1" />
               <code value="18719-5" />
               <display value="Chemistry studies" />
            </coding>
         </code>
      </Observation>
   </contained>
   <contained>
      <Observation xmlns="http://hl7.org/fhir">
         <id value="17" />
         <status value="unknown" />
         <code>
            <coding>
               <system value="urn:oid:2.999" />
               <code value="dummy" />
               <display value="dummy code to make FHIR resource valid" />
            </coding>
         </code>
         <effectiveDateTime value="2015-04-04T00:00:00+02:00" />
         <comment value="sc1" />
      </Observation>
   </contained>
   <contained>
      <Observation xmlns="http://hl7.org/fhir">
         <id value="18" />
         <status value="unknown" />
         <code>
            <coding>
               <system value="urn:oid:2.999" />
               <code value="dummy" />
               <display value="dummy code to make FHIR resource valid" />
            </coding>
         </code>
         <effectiveDateTime value="2015-04-05T16:34:00+02:00" />
      </Observation>
   </contained>
   <contained>
      <Observation xmlns="http://hl7.org/fhir">
         <id value="19" />
         <status value="unknown" />
         <category>
            <coding>
               <system value="urn:oid:dummy" />
               <code value="dummy" />
               <display value="statusCode=completed" />
            </coding>
         </category>
         <code>
            <coding>
               <system value="urn:oid:2.999" />
               <code value="dummy" />
               <display value="dummy code to make FHIR resource valid" />
            </coding>
         </code>
         <effectiveDateTime value="2015-04-06T11:37:00+02:00" />
         <related>
            <target>
               <extension url="urn:ehealth_connector:FhirExtension:useAsLaboratoryObservation">
                  <valueString value="dummy" />
               </extension>
               <reference value="#20" />
            </target>
         </related>
      </Observation>
   </contained>
   <contained>
      <Observation xmlns="http://hl7.org/fhir">
         <id value="20" />
         <status value="unknown" />
         <code>
            <coding>
               <system value="urn:oid:2.16.840.1.113883.6.1" />
               <code value="2951-2" />
               <display value="Sodium [Moles/volume] in Serum or Plasma" />
            </coding>
         </code>
         <valueQuantity>
            <value value="137" />
            <unit value="mmol/L" />
         </valueQuantity>
         <interpretation>
            <coding>
               <system value="urn:oid:2.16.840.1.113883.5.83" />
               <code value="N" />
            </coding>
         </interpretation>
         <comment value="l1" />
         <referenceRange>
            <low>
               <value value="135" />
               <unit value="mmol/L" />
            </low>
            <high>
               <value value="147" />
               <unit value="mmol/L" />
            </high>
         </referenceRange>
         <related>
            <target>
               <extension url="urn:ehealth_connector:FhirExtension:useAsComment">
                  <valueString value="dummy" />
               </extension>
               <reference value="#21" />
            </target>
         </related>
      </Observation>
   </contained>
   <contained>
      <Observation xmlns="http://hl7.org/fhir">
         <id value="21" />
         <status value="unknown" />
         <code>
            <coding>
               <system value="urn:oid:2.999" />
               <code value="dummy" />
               <display value="dummy code to make FHIR resource valid" />
            </coding>
         </code>
         <comment value="#lc1" />
      </Observation>
   </contained>
   <identifier>
      <system value="urn:oid:2.16.756.5.30.1.1.1.1" />
      <value value="5e8ff314-7e88-2b7a-5355-7e8374b73cd1" />
   </identifier>
   <identifier>
      <system value="urn:oid:2.16.756.5.30.1.1.1.1" />
      <value value="5e8ff314-7e88-2b7a-5355-7e8374b73cd1" />
   </identifier>
   <status value="current" />
   <created value="2017-04-24T00:00:00+02:00" />
   <content>
      <pReference>
         <display value="dummy" />
      </pReference>
   </content>
   <content>
      <pReference>
         <reference value="#1" />
      </pReference>
   </content>
   <content>
      <pReference>
         <reference value="#2" />
      </pReference>
   </content>
   <content>
      <pReference>
         <reference value="#3" />
      </pReference>
   </content>
   <content>
      <pReference>
         <reference value="#4" />
      </pReference>
   </content>
   <content>
      <pReference>
         <reference value="#5" />
      </pReference>
   </content>
   <content>
      <extension url="urn:ehealth_connector:FhirExtension:useAsAuthor">
         <valueTime value="20160427224147+0200" />
      </extension>
      <pReference>
         <reference value="#6" />
      </pReference>
   </content>
   <content>
      <extension url="urn:ehealth_connector:FhirExtension:useAsCustodian">
         <valueString value="dummy" />
      </extension>
      <pReference>
         <reference value="#8" />
      </pReference>
   </content>
   <content>
      <extension url="urn:ehealth_connector:FhirExtension:useAsLegalAuthenticator">
         <valueTime value="20150408" />
      </extension>
      <pReference>
         <reference value="#9" />
      </pReference>
   </content>
   <content>
      <extension url="urn:ehealth_connector:FhirExtension:useAsClaimer">
         <valueString value="dummy" />
      </extension>
      <pReference>
         <reference value="#11" />
      </pReference>
   </content>
   <content>
      <extension url="urn:ehealth_connector:FhirExtension:useAsClaimer">
         <valueString value="dummy" />
      </extension>
      <pReference>
         <reference value="#12" />
      </pReference>
   </content>
   <content>
      <extension url="urn:ehealth_connector:FhirExtension:useAsInformationRecipient">
         <valueString value="dummy" />
      </extension>
      <pReference>
         <reference value="#13" />
      </pReference>
   </content>
   <content>
      <extension url="urn:ehealth_connector:FhirExtension:urnUseAsInFulfillmentOf">
         <valueString value="dummy" />
      </extension>
      <pReference>
         <reference value="#14" />
      </pReference>
   </content>
   <content>
      <extension url="urn:ehealth_connector:FhirExtension:useAsNonLivingSubject">
         <valueString value="dummy" />
      </extension>
      <pReference>
         <reference value="#15" />
      </pReference>
   </content>
   <content>
      <extension url="urn:ehealth_connector:FhirExtension:useAsLaboratorySpecialtySection">
         <valueString value="dummy" />
      </extension>
      <pReference>
         <reference value="#16" />
      </pReference>
   </content>
   <content>
      <extension url="urn:ehealth_connector:FhirExtension:useAsSpecimenCollection">
         <valueString value="dummy" />
      </extension>
      <pReference>
         <reference value="#17" />
      </pReference>
   </content>
   <content>
      <extension url="urn:ehealth_connector:FhirExtension:useAsSpecimenReceived">
         <valueString value="dummy" />
      </extension>
      <pReference>
         <reference value="#18" />
      </pReference>
   </content>
   <content>
      <extension url="urn:ehealth_connector:FhirExtension:useAsLaboratoryBatteryOrganizer">
         <valueString value="dummy" />
      </extension>
      <pReference>
         <reference value="#19" />
      </pReference>
   </content>
</DocumentManifest>