<DocumentManifest xmlns="http://hl7.org/fhir">
   <meta>
      <versionId value="1" />
   </meta>
   <language value="de-CH" />
   <contained>
      <Basic xmlns="http://hl7.org/fhir">
         <id value="1" />
         <code>
            <coding>
               <code value="CHE" />
            </coding>
         </code>
      </Basic>
   </contained>
   <contained>
      <Basic xmlns="http://hl7.org/fhir">
         <id value="2" />
         <code>
            <coding>
               <system value="urn:oid:2.16.756.5.30.1.1.1.1.3.5" />
               <code value="patient" />
            </coding>
         </code>
      </Basic>
   </contained>
   <contained>
      <Basic xmlns="http://hl7.org/fhir">
         <id value="3" />
         <code>
            <coding>
               <system value="urn:oid:2.16.840.1.113883.5.25" />
               <code value="R" />
               <display value="Restricted" />
            </coding>
         </code>
      </Basic>
   </contained>
   <contained>
      <Patient xmlns="http://hl7.org/fhir">
         <id value="4" />
         <identifier>
            <system value="urn:oid:2.16.756.5.30.999999999999" />
            <value value="898989" />
         </identifier>
         <name>
            <family value="Tigrinja" />
            <given value="Sesuna" />
         </name>
         <telecom>
            <system value="phone" />
            <value value="tel:+41.32.685.12.34" />
            <use value="home" />
         </telecom>
         <telecom>
            <system value="phone" />
            <value value="tel:+41.32.123.77.88" />
            <use value="work" />
         </telecom>
         <gender value="female" />
         <birthDate value="2000-04-04" />
         <address>
            <use value="home" />
            <line value="Leidensweg 10" />
            <city value="Specimendorf" />
            <postalCode value="9876" />
            <country value="CHE" />
         </address>
         <managingOrganization>
            <reference value="#5" />
         </managingOrganization>
      </Patient>
   </contained>
   <contained>
      <Organization xmlns="http://hl7.org/fhir">
         <id value="5" />
         <identifier>
            <system value="urn:oid:2.51.1.3" />
            <value value="7609999999999" />
         </identifier>
         <name value="Gruppenpraxis CH" />
         <telecom>
            <system value="phone" />
            <value value="tel:+41.32.234.55.66" />
            <use value="work" />
         </telecom>
         <telecom>
            <system value="fax" />
            <value value="fax:+41.32.234.66.77" />
            <use value="work" />
         </telecom>
         <telecom>
            <system value="email" />
            <value value="mailto:bereit@gruppenpraxis.ch" />
            <use value="work" />
         </telecom>
         <telecom>
            <system value="url" />
            <value value="http://www.gruppenpraxis.ch" />
            <use value="work" />
         </telecom>
         <address>
            <use value="work" />
            <line value="Doktorgasse 2" />
            <city value="Musterhausen" />
            <postalCode value="8888" />
            <country value="CHE" />
         </address>
      </Organization>
   </contained>
   <contained>
      <Person xmlns="http://hl7.org/fhir">
         <id value="6" />
         <identifier>
            <system value="urn:oid:2.51.1.3" />
            <value value="7607777777777" />
         </identifier>
         <name>
            <family value="Bereit" />
            <given value="Allzeit" />
            <prefix value="Dr. med." />
            <suffix value="Facharzt für Allgemeine Medizin" />
         </name>
         <telecom>
            <system value="phone" />
            <value value="tel:+41.32.234.55.66" />
         </telecom>
         <telecom>
            <system value="fax" />
            <value value="fax:+41.32.234.66.77" />
         </telecom>
         <telecom>
            <system value="email" />
            <value value="mailto:bereit@gruppenpraxis.ch" />
         </telecom>
         <telecom>
            <system value="url" />
            <value value="http://www.gruppenpraxis.ch" />
         </telecom>
         <address>
            <use value="work" />
            <line value="Doktorgasse 2" />
            <city value="Musterhausen" />
            <postalCode value="8888" />
         </address>
         <managingOrganization>
            <reference value="#5" />
         </managingOrganization>
      </Person>
   </contained>
   <contained>
      <MedicationStatement xmlns="http://hl7.org/fhir">
         <id value="7" />
         <extension url="urn:ehealth_connector:FhirExtension:urnUseAsCode">
            <valueCoding>
               <system value="urn:oid:2.16.840.1.113883.5.4" />
               <code value="IMMUNIZ" />
            </valueCoding>
         </extension>
         <extension url="urn:ehealth_connector:FhirExtension:useAsComment">
            <valueString value="Anlässlich Schularztuntersuchung" />
         </extension>
         <identifier>
            <system value="urn:oid:2.999" />
            <value value="328709" />
         </identifier>
         <status value="active" />
         <medicationReference>
            <reference value="#8" />
         </medicationReference>
         <dateAsserted value="2015-06-04T00:00:00+02:00" />
         <subject>
            <reference value="#4" />
         </subject>
         <derivedFrom>
            <extension url="urn:ehealth_connector:FhirExtension:useAsPerformer">
               <valueTime value="20151030" />
            </extension>
            <reference value="#6" />
            <display value="dummy" />
         </derivedFrom>
         <derivedFrom>
            <extension url="urn:ehealth_connector:FhirExtension:useAsAuthor">
               <valueTime value="20151030" />
            </extension>
            <reference value="#6" />
            <display value="dummy" />
         </derivedFrom>
         <derivedFrom>
            <extension url="urn:ehealth_connector:FhirExtension:useAsMedicationTarget">
               <valueString value="dummy" />
            </extension>
            <reference value="#10" />
         </derivedFrom>
         <derivedFrom>
            <extension url="urn:ehealth_connector:FhirExtension:useAsCriterion">
               <valueString value="dummy" />
            </extension>
            <reference value="#15" />
         </derivedFrom>
         <taken value="unk" />
      </MedicationStatement>
   </contained>
   <contained>
      <Medication xmlns="http://hl7.org/fhir">
         <id value="8" />
         <extension url="urn:ehealth_connector:FhirExtension:useAsIdentifier">
            <valueIdentifier>
               <system value="urn:oid:1.3.160" />
               <value value="7680006370012" />
            </valueIdentifier>
         </extension>
         <code>
            <coding>
               <system value="urn:oid:2.16.840.1.113883.6.73" />
               <code value="J07CA02" />
               <display value="diphtheria-pertussis-poliomyelitis-tetanus" />
            </coding>
            <text value="BOOSTRIX Polio Inj Susp" />
         </code>
         <manufacturer>
            <reference value="#9" />
         </manufacturer>
      </Medication>
   </contained>
   <contained>
      <Organization xmlns="http://hl7.org/fhir">
         <id value="9" />
         <name value="GlaxoSmithKline AG" />
      </Organization>
   </contained>
   <contained>
      <List xmlns="http://hl7.org/fhir">
         <id value="10" />
         <extension url="urn:ehealth_connector:FhirExtension:useAsMedicationTarget">
            <valueString value="dummy" />
         </extension>
         <status value="current" />
         <mode value="snapshot" />
         <entry>
            <item>
               <reference value="#11" />
            </item>
         </entry>
         <entry>
            <item>
               <reference value="#12" />
            </item>
         </entry>
         <entry>
            <item>
               <reference value="#13" />
            </item>
         </entry>
         <entry>
            <item>
               <reference value="#14" />
            </item>
         </entry>
      </List>
   </contained>
   <contained>
      <Observation xmlns="http://hl7.org/fhir">
         <id value="11" />
         <identifier>
            <system value="urn:oid:2.16.756.5.30.1.1.1.1.3.5.1" />
            <value value="975b6a02-7754-0776-7977-8b1126624cbc" />
         </identifier>
         <status value="unknown" />
         <code>
            <coding>
               <system value="urn:oid:2.16.840.1.113883.6.96" />
               <code value="39343008" />
               <display value="Pertussis vaccination (procedure)" />
            </coding>
         </code>
         <comment value="Pertussis" />
      </Observation>
   </contained>
   <contained>
      <Observation xmlns="http://hl7.org/fhir">
         <id value="12" />
         <identifier>
            <system value="urn:oid:2.16.756.5.30.1.1.1.1.3.5.1" />
            <value value="975b6aa2-7754-0776-8458-8b1126624cbc" />
         </identifier>
         <status value="unknown" />
         <code>
            <coding>
               <system value="urn:oid:2.16.840.1.113883.6.96" />
               <code value="127786006" />
               <display value="Tetanus vaccination (procedure)" />
            </coding>
         </code>
         <comment value="Tetanus" />
      </Observation>
   </contained>
   <contained>
      <Observation xmlns="http://hl7.org/fhir">
         <id value="13" />
         <identifier>
            <system value="urn:oid:2.16.756.5.30.1.1.1.1.3.5.1" />
            <value value="975b6b38-7754-0776-9239-8b1126624cbc" />
         </identifier>
         <status value="unknown" />
         <code>
            <coding>
               <system value="urn:oid:2.16.840.1.113883.6.96" />
               <code value="72093006" />
               <display value="Poliomyelitis vaccination (procedure)" />
            </coding>
         </code>
         <comment value="Polio" />
      </Observation>
   </contained>
   <contained>
      <Observation xmlns="http://hl7.org/fhir">
         <id value="14" />
         <identifier>
            <system value="urn:oid:2.16.756.5.30.1.1.1.1.3.5.1" />
            <value value="975b6b42-7754-0776-d83d-8b1126624cbc" />
         </identifier>
         <status value="unknown" />
         <code>
            <coding>
               <system value="urn:oid:2.16.840.1.113883.6.96" />
               <code value="76668005" />
               <display value="Diphtheria vaccination (procedure)" />
            </coding>
         </code>
         <comment value="Diphterie" />
      </Observation>
   </contained>
   <contained>
      <List xmlns="http://hl7.org/fhir">
         <id value="15" />
         <status value="current" />
         <mode value="snapshot" />
         <entry>
            <item>
               <reference value="#16" />
            </item>
         </entry>
      </List>
   </contained>
   <contained>
      <Observation xmlns="http://hl7.org/fhir">
         <id value="16" />
         <status value="unknown" />
         <code>
            <coding>
               <system value="urn:oid:2.16.756.5.30.1.127.3.3.4" />
               <code value="41501" />
               <display value="Empfohlene Basisimpfungen" />
            </coding>
         </code>
      </Observation>
   </contained>
   <contained>
      <MedicationStatement xmlns="http://hl7.org/fhir">
         <id value="17" />
         <extension url="urn:ehealth_connector:FhirExtension:urnUseAsCode">
            <valueCoding>
               <system value="urn:oid:2.16.840.1.113883.5.4" />
               <code value="IMMUNIZ" />
            </valueCoding>
         </extension>
         <extension url="urn:ehealth_connector:FhirExtension:useAsComment">
            <valueString value="Immunization should not be taken" />
         </extension>
         <identifier>
            <system value="urn:oid:2.999" />
            <value value="328709" />
         </identifier>
         <status value="active" />
         <medicationReference>
            <reference value="#18" />
         </medicationReference>
         <dateAsserted value="2017-04-28T00:00:00+02:00" />
         <subject>
            <reference value="#4" />
         </subject>
         <taken value="n" />
      </MedicationStatement>
   </contained>
   <contained>
      <Medication xmlns="http://hl7.org/fhir">
         <id value="18" />
         <extension url="urn:ehealth_connector:FhirExtension:useAsIdentifier">
            <valueIdentifier>
               <system value="urn:oid:1.3.160" />
               <value value="7680006370012" />
            </valueIdentifier>
         </extension>
         <code>
            <coding>
               <system value="urn:oid:2.16.840.1.113883.6.73" />
               <code value="J07CA02" />
               <display value="diphtheria-pertussis-poliomyelitis-tetanus" />
            </coding>
            <text value="BOOSTRIX Polio Inj Susp" />
         </code>
         <manufacturer>
            <reference value="#9" />
         </manufacturer>
      </Medication>
   </contained>
   <contained>
      <Condition xmlns="http://hl7.org/fhir">
         <id value="19" />
         <identifier>
            <system value="urn:oid:2.16.756.5.30.1.1.1.1.3.5" />
            <value value="9759ad8e-7754-0776-ae9a-e74525dc3a64" />
         </identifier>
         <clinicalStatus value="resolved" />
         <verificationStatus value="unknown" />
         <code>
            <coding>
               <system value="urn:oid:2.16.756.5.30.1.127.3.3.1" />
               <code value="114004" />
               <display value="Schweres Asthma: bei verlängerter oder häufiger Behandlung mit oralen Steroiden" />
            </coding>
         </code>
         <subject>
            <reference value="#4" />
         </subject>
         <assertedDate value="2014-01-12T00:00:00+01:00" />
         <note>
            <text value="Komplikationsrisiken" />
         </note>
      </Condition>
   </contained>
   <contained>
      <Condition xmlns="http://hl7.org/fhir">
         <id value="20" />
         <identifier>
            <system value="urn:oid:2.16.756.5.30.1.1.1.1.3.5" />
            <value value="9759b180-7754-0776-03f0-e74525dc3a64" />
         </identifier>
         <clinicalStatus value="resolved" />
         <verificationStatus value="unknown" />
         <code>
            <coding>
               <system value="urn:oid:2.16.840.1.113883.6.96" />
               <code value="38907003" />
               <display value="H/O: chickenpox" />
            </coding>
         </code>
         <subject>
            <reference value="#4" />
         </subject>
         <assertedDate value="2012-12-14T00:00:00+01:00" />
         <note>
            <text value="Windpocken" />
         </note>
      </Condition>
   </contained>
   <contained>
      <Condition xmlns="http://hl7.org/fhir">
         <id value="21" />
         <identifier>
            <system value="urn:oid:2.16.756.5.30.1.1.1.1.3.5" />
            <value value="9759b220-7754-0776-c86c-e74525dc3a64" />
         </identifier>
         <clinicalStatus value="active" />
         <verificationStatus value="unknown" />
         <code>
            <coding>
               <system value="urn:oid:2.16.840.1.113883.6.96" />
               <code value="303300008" />
               <display value="Egg protein (substance)" />
            </coding>
         </code>
         <subject>
            <reference value="#4" />
         </subject>
         <assertedDate value="2012-12-13T00:00:00+01:00" />
         <note>
            <text value="Hühnereiweiss" />
         </note>
      </Condition>
   </contained>
   <contained>
      <Observation xmlns="http://hl7.org/fhir">
         <id value="22" />
         <status value="unknown" />
         <code>
            <coding>
               <system value="urn:oid:2.16.840.1.113883.6.1" />
               <code value="718-7" />
               <display value="Hemoglobin [Mass/volume] in Blood" />
            </coding>
         </code>
         <issued value="2015-02-01T00:00:00.000+01:00" />
         <performer>
            <reference value="#23" />
         </performer>
         <valueQuantity>
            <value value="120" />
            <unit value="g/L" />
         </valueQuantity>
         <interpretation>
            <coding>
               <system value="urn:oid:2.16.756.5.30.1.127.3.2.20121101.3" />
               <code value="N" />
               <display value="Normal" />
            </coding>
         </interpretation>
         <referenceRange>
            <low>
               <value value="100" />
               <unit value="g/L" />
            </low>
            <high>
               <value value="130" />
               <unit value="g/L" />
            </high>
         </referenceRange>
         <related>
            <target>
               <extension url="urn:ehealth_connector:FhirExtension:useAsComment">
                  <valueString value="dummy" />
               </extension>
               <reference value="#24" />
            </target>
         </related>
      </Observation>
   </contained>
   <contained>
      <Organization xmlns="http://hl7.org/fhir">
         <id value="23" />
         <identifier>
            <system value="urn:oid:2.51.1.3" />
            <value value="7605555555555" />
         </identifier>
         <name value="Labor Pipette" />
         <telecom>
            <system value="phone" />
            <value value="tel:+41.32.555.55.55" />
            <use value="work" />
         </telecom>
         <telecom>
            <system value="email" />
            <value value="mailto:demo@labor-pipette.ch" />
            <use value="work" />
         </telecom>
         <telecom>
            <system value="url" />
            <value value="http://labor-pipette.ch" />
            <use value="work" />
         </telecom>
         <address>
            <use value="work" />
            <line value="Analyzergasse" />
            <city value="Musterhausen" />
            <postalCode value="8888" />
            <country value="CHE" />
         </address>
      </Organization>
   </contained>
   <contained>
      <Observation xmlns="http://hl7.org/fhir">
         <id value="24" />
         <status value="unknown" />
         <code>
            <coding>
               <system value="urn:oid:2.999" />
               <code value="dummy" />
               <display value="dummy code to make FHIR resource valid" />
            </coding>
         </code>
         <comment value="Quantity sample observation value for DemoVACD using FHIR resources" />
      </Observation>
   </contained>
   <contained>
      <Observation xmlns="http://hl7.org/fhir">
         <id value="25" />
         <status value="unknown" />
         <code>
            <coding>
               <system value="urn:oid:2.16.840.1.113883.6.1" />
               <code value="22502-9" />
               <display value="Measles virus Ab.IgG" />
            </coding>
         </code>
         <issued value="2015-02-01T00:00:00.000+01:00" />
         <performer>
            <reference value="#23" />
         </performer>
         <valueCodeableConcept>
            <coding>
               <system value="urn:oid:2.16.756.5.30.1.127.3.2.20121101.3" />
               <code value="NEG" />
               <display value="Negative; Pathogen couldn't be determined in specimen" />
            </coding>
         </valueCodeableConcept>
         <related>
            <target>
               <extension url="urn:ehealth_connector:FhirExtension:useAsComment">
                  <valueString value="dummy" />
               </extension>
               <reference value="#26" />
            </target>
         </related>
      </Observation>
   </contained>
   <contained>
      <Observation xmlns="http://hl7.org/fhir">
         <id value="26" />
         <status value="unknown" />
         <code>
            <coding>
               <system value="urn:oid:2.999" />
               <code value="dummy" />
               <display value="dummy code to make FHIR resource valid" />
            </coding>
         </code>
         <comment value="Quantity sample observation value for DemoVACD using FHIR resources" />
      </Observation>
   </contained>
   <contained>
      <Observation xmlns="http://hl7.org/fhir">
         <id value="27" />
         <identifier>
            <system value="urn:oid:2.16.756.5.30.1.1.1.1.3.5" />
            <value value="975b85a0-7754-0776-d92d-8b1126624cbc" />
         </identifier>
         <status value="unknown" />
         <code>
            <coding>
               <system value="urn:oid:2.16.840.1.113883.6.1" />
               <code value="49051-6" />
               <display value="Gestational age in W" />
            </coding>
         </code>
         <performer>
            <reference value="#28" />
         </performer>
         <valueQuantity>
            <value value="39" />
         </valueQuantity>
      </Observation>
   </contained>
   <contained>
      <Practitioner xmlns="http://hl7.org/fhir">
         <id value="28" />
         <identifier>
            <system value="urn:oid:2.51.1.3" />
            <value value="7607777777777" />
         </identifier>
         <name>
            <family value="Bereit" />
            <given value="Allzeit" />
            <prefix value="Dr. med." />
            <suffix value="Facharzt für Allgemeine Medizin" />
         </name>
      </Practitioner>
   </contained>
   <contained>
      <Observation xmlns="http://hl7.org/fhir">
         <id value="29" />
         <identifier>
            <system value="urn:oid:2.16.756.5.30.1.1.1.1.3.5" />
            <value value="975b85a0-7754-0776-d92d-8b1126624cbc" />
         </identifier>
         <status value="unknown" />
         <code>
            <coding>
               <system value="urn:oid:2.16.840.1.113883.6.1" />
               <code value="49052-4" />
               <display value="Gestational age in D" />
            </coding>
         </code>
         <performer>
            <reference value="#30" />
         </performer>
         <valueQuantity>
            <value value="5" />
         </valueQuantity>
      </Observation>
   </contained>
   <contained>
      <Practitioner xmlns="http://hl7.org/fhir">
         <id value="30" />
         <identifier>
            <system value="urn:oid:2.51.1.3" />
            <value value="7607777777777" />
         </identifier>
         <name>
            <family value="Bereit" />
            <given value="Allzeit" />
            <prefix value="Dr. med." />
            <suffix value="Facharzt für Allgemeine Medizin" />
         </name>
      </Practitioner>
   </contained>
   <contained>
      <Observation xmlns="http://hl7.org/fhir">
         <id value="31" />
         <identifier>
            <system value="urn:oid:2.16.756.5.30.1.1.1.1.3.5" />
            <value value="975b88de-7754-0776-0920-8b1126624cbc" />
         </identifier>
         <status value="unknown" />
         <code>
            <coding>
               <system value="urn:oid:2.16.840.1.113883.6.1" />
               <code value="11778-8" />
               <display value="DELIVERY DATE (CLINICAL ESTIMATE)" />
            </coding>
         </code>
         <performer>
            <reference value="#32" />
         </performer>
         <valueDateTime value="2015-04-11T00:00:00+02:00" />
      </Observation>
   </contained>
   <contained>
      <Practitioner xmlns="http://hl7.org/fhir">
         <id value="32" />
         <identifier>
            <system value="urn:oid:2.51.1.3" />
            <value value="7607777777777" />
         </identifier>
         <name>
            <family value="Bereit" />
            <given value="Allzeit" />
            <prefix value="Dr. med." />
            <suffix value="Facharzt für Allgemeine Medizin" />
         </name>
      </Practitioner>
   </contained>
   <contained>
      <MedicationStatement xmlns="http://hl7.org/fhir">
         <id value="33" />
         <extension url="urn:ehealth_connector:FhirExtension:urnUseAsCode">
            <valueCoding>
               <system value="urn:oid:2.16.840.1.113883.5.4" />
               <code value="IMMUNIZ" />
            </valueCoding>
         </extension>
         <extension url="urn:ehealth_connector:FhirExtension:useAsExternalDocument">
            <valueReference>
               <reference value="#34" />
            </valueReference>
         </extension>
         <identifier>
            <system value="urn:oid:2.999" />
            <value value="328711" />
         </identifier>
         <status value="active" />
         <medicationReference>
            <reference value="#36" />
         </medicationReference>
         <dateAsserted value="2015-06-04T00:00:00+02:00" />
         <subject>
            <reference value="#4" />
         </subject>
         <derivedFrom>
            <extension url="urn:ehealth_connector:FhirExtension:useAsPerformer">
               <valueTime value="20151030" />
            </extension>
            <display value="dummy" />
         </derivedFrom>
         <derivedFrom>
            <extension url="urn:ehealth_connector:FhirExtension:useAsAuthor">
               <valueTime value="20151030" />
            </extension>
            <reference value="#37" />
            <display value="dummy" />
         </derivedFrom>
         <derivedFrom>
            <extension url="urn:ehealth_connector:FhirExtension:useAsMedicationTarget">
               <valueString value="dummy" />
            </extension>
            <reference value="#39" />
         </derivedFrom>
         <derivedFrom>
            <extension url="urn:ehealth_connector:FhirExtension:useAsCriterion">
               <valueString value="dummy" />
            </extension>
            <reference value="#15" />
         </derivedFrom>
         <taken value="y" />
      </MedicationStatement>
   </contained>
   <contained>
      <Observation xmlns="http://hl7.org/fhir">
         <id value="34" />
         <status value="unknown" />
         <code>
            <coding>
               <system value="urn:oid:2.999" />
               <code value="dummy" />
               <display value="dummy code to make FHIR resource valid" />
            </coding>
         </code>
         <related>
            <extension url="urn:ehealth_connector:FhirExtension:useAsExternalDocument">
               <valueString value="dummy" />
            </extension>
            <target>
               <reference value="#35" />
            </target>
         </related>
      </Observation>
   </contained>
   <contained>
      <Observation xmlns="http://hl7.org/fhir">
         <id value="35" />
         <status value="unknown" />
         <code>
            <coding>
               <system value="urn:oid:2.16.756.5.30.1.1.1.1.3.5.1" />
            </coding>
         </code>
         <comment value="http://www.bag.admin.ch/ekif/04423/04428/index.html?lang=de" />
      </Observation>
   </contained>
   <contained>
      <Medication xmlns="http://hl7.org/fhir">
         <id value="36" />
         <extension url="urn:ehealth_connector:FhirExtension:useAsIdentifier">
            <valueIdentifier>
               <system value="urn:oid:1.3.160" />
               <value value="7680005340016" />
            </valueIdentifier>
         </extension>
         <code>
            <coding>
               <system value="urn:oid:2.16.840.1.113883.6.73" />
               <code value="J07BC01" />
               <display value="hepatitis B, purified antigen" />
            </coding>
            <text value="ENGERIX B 20 Inj Susp Erw" />
         </code>
         <manufacturer>
            <reference value="#9" />
         </manufacturer>
      </Medication>
   </contained>
   <contained>
      <Person xmlns="http://hl7.org/fhir">
         <id value="37" />
         <identifier>
            <system value="urn:oid:2.51.1.3" />
            <value value="7606666666666" />
         </identifier>
         <name>
            <family value="Ratschlag" />
            <given value="Pieks" />
            <prefix value="Prof." />
            <suffix value="Facharzt für Allgemeine Medizin" />
         </name>
         <managingOrganization>
            <reference value="#38" />
         </managingOrganization>
      </Person>
   </contained>
   <contained>
      <Organization xmlns="http://hl7.org/fhir">
         <id value="38" />
         <identifier>
            <system value="urn:oid:2.51.1.3" />
            <value value="7608888888888" />
         </identifier>
         <name value="CDSS AG" />
         <telecom>
            <system value="phone" />
            <value value="tel:+41.99.999.99.99" />
            <use value="work" />
         </telecom>
         <telecom>
            <system value="email" />
            <value value="mailto:info@cdss.ch" />
            <use value="work" />
         </telecom>
         <telecom>
            <system value="url" />
            <value value="http://www.cdss.ch" />
            <use value="work" />
         </telecom>
         <address>
            <use value="work" />
            <line value="Rathaus" />
            <city value="Musterhausen" />
            <postalCode value="8888" />
            <country value="CHE" />
         </address>
      </Organization>
   </contained>
   <contained>
      <List xmlns="http://hl7.org/fhir">
         <id value="39" />
         <extension url="urn:ehealth_connector:FhirExtension:useAsMedicationTarget">
            <valueString value="dummy" />
         </extension>
         <status value="current" />
         <mode value="snapshot" />
         <entry>
            <item>
               <reference value="#40" />
            </item>
         </entry>
      </List>
   </contained>
   <contained>
      <Observation xmlns="http://hl7.org/fhir">
         <id value="40" />
         <identifier>
            <system value="urn:oid:2.16.756.5.30.1.1.1.1.3.5.1" />
            <value value="975b8974-7754-0776-e39e-8b1126624cbc" />
         </identifier>
         <status value="unknown" />
         <code>
            <coding>
               <system value="urn:oid:2.16.840.1.113883.6.96" />
               <code value="16584000" />
               <display value="Hepatitis B vaccination (procedure)" />
            </coding>
         </code>
         <comment value="Hepatitis B" />
      </Observation>
   </contained>
   <contained>
      <MedicationStatement xmlns="http://hl7.org/fhir">
         <id value="41" />
         <extension url="urn:ehealth_connector:FhirExtension:urnUseAsCode">
            <valueCoding>
               <system value="urn:oid:2.16.840.1.113883.5.4" />
               <code value="IMMUNIZ" />
            </valueCoding>
         </extension>
         <extension url="urn:ehealth_connector:FhirExtension:useAsExternalDocument">
            <valueReference>
               <reference value="#34" />
            </valueReference>
         </extension>
         <identifier>
            <system value="urn:oid:2.999" />
            <value value="328712" />
         </identifier>
         <status value="active" />
         <medicationReference>
            <reference value="#42" />
         </medicationReference>
         <dateAsserted value="2015-06-04T00:00:00+02:00" />
         <subject>
            <reference value="#4" />
         </subject>
         <derivedFrom>
            <extension url="urn:ehealth_connector:FhirExtension:useAsPerformer">
               <valueTime value="20151030" />
            </extension>
         </derivedFrom>
         <derivedFrom>
            <extension url="urn:ehealth_connector:FhirExtension:useAsAuthor">
               <valueTime value="20151030" />
            </extension>
            <reference value="#37" />
         </derivedFrom>
         <derivedFrom>
            <extension url="urn:ehealth_connector:FhirExtension:useAsMedicationTarget">
               <valueString value="dummy" />
            </extension>
            <reference value="#44" />
         </derivedFrom>
         <derivedFrom>
            <extension url="urn:ehealth_connector:FhirExtension:useAsCriterion">
               <valueString value="dummy" />
            </extension>
            <reference value="#15" />
         </derivedFrom>
         <taken value="y" />
      </MedicationStatement>
   </contained>
   <contained>
      <Medication xmlns="http://hl7.org/fhir">
         <id value="42" />
         <extension url="urn:ehealth_connector:FhirExtension:useAsIdentifier">
            <valueIdentifier>
               <system value="urn:oid:1.3.160" />
               <value value="7680577350031" />
            </valueIdentifier>
         </extension>
         <code>
            <coding>
               <system value="urn:oid:2.16.840.1.113883.6.73" />
               <code value="J07BM01" />
               <display value="papillomavirus (human types 6, 11, 16, 18)" />
            </coding>
            <text value="GARDASIL Inj Susp m Nad o SD" />
         </code>
         <manufacturer>
            <reference value="#43" />
         </manufacturer>
      </Medication>
   </contained>
   <contained>
      <Organization xmlns="http://hl7.org/fhir">
         <id value="43" />
         <name value="Sanofi Pasteur MSD AG" />
      </Organization>
   </contained>
   <contained>
      <List xmlns="http://hl7.org/fhir">
         <id value="44" />
         <extension url="urn:ehealth_connector:FhirExtension:useAsMedicationTarget">
            <valueString value="dummy" />
         </extension>
         <status value="current" />
         <mode value="snapshot" />
         <entry>
            <item>
               <reference value="#45" />
            </item>
         </entry>
      </List>
   </contained>
   <contained>
      <Observation xmlns="http://hl7.org/fhir">
         <id value="45" />
         <identifier>
            <system value="urn:oid:2.16.756.5.30.1.1.1.1.3.5.1" />
            <value value="975b8a14-7754-0776-e5de-8b1126624cbc" />
         </identifier>
         <status value="unknown" />
         <code>
            <coding>
               <system value="urn:oid:2.16.840.1.113883.6.96" />
               <code value="428570002" />
               <display value="Vaccination for human papillomavirus (procedure)" />
            </coding>
         </code>
         <comment value="Papillomavirus" />
      </Observation>
   </contained>
   <contained>
      <Observation xmlns="http://hl7.org/fhir">
         <id value="46" />
         <status value="unknown" />
         <code>
            <coding>
               <system value="urn:oid:2.16.840.1.113883.6.1" />
               <code value="48767-8" />
            </coding>
         </code>
         <comment value="Der Impfplan 2014 empfiehlt bei nicht oder unvollständig geimpften Personen:&lt;br /> Diphterie, Tetanus, Keuchhusten (bis 16 Jahre), Kinderlähmung, Masern Mumps und Röteln sowie Varizellen und Hepatitis B sowie humane PapillomaViren." />
      </Observation>
   </contained>
   <identifier>
      <system value="urn:oid:2.16.756.5.30.1.1.1.1" />
      <value value="975b6192-7754-0776-1c01-8b1126624cbc" />
   </identifier>
   <identifier>
      <system value="urn:oid:2.16.756.5.30.1.1.1.1" />
      <value value="975b6192-7754-0776-1c01-8b1126624cbc" />
   </identifier>
   <status value="current" />
   <created value="2017-04-24T00:00:00+02:00" />
   <content>
      <pReference>
         <display value="dummy" />
      </pReference>
   </content>
   <content>
      <pReference>
         <reference value="#1" />
      </pReference>
   </content>
   <content>
      <extension url="urn:ehealth_connector:FhirExtension:useAsDocType">
         <valueString value="dummy" />
      </extension>
      <pReference>
         <reference value="#2" />
      </pReference>
   </content>
   <content>
      <pReference>
         <reference value="#3" />
      </pReference>
   </content>
   <content>
      <pReference>
         <reference value="#4" />
      </pReference>
   </content>
   <content>
      <extension url="urn:ehealth_connector:FhirExtension:useAsAuthor">
         <valueTime value="20160427224259+0200" />
      </extension>
      <pReference>
         <reference value="#6" />
      </pReference>
   </content>
   <content>
      <extension url="urn:ehealth_connector:FhirExtension:useAsCustodian">
         <valueString value="dummy" />
      </extension>
      <pReference>
         <reference value="#5" />
      </pReference>
   </content>
   <content>
      <extension url="urn:ehealth_connector:FhirExtension:useAsLegalAuthenticator">
         <valueTime value="20151030" />
      </extension>
      <pReference>
         <reference value="#6" />
      </pReference>
   </content>
   <content>
      <extension url="urn:ehealth_connector:FhirExtension:useAsImmunization">
         <valueString value="dummy" />
      </extension>
      <pReference>
         <reference value="#7" />
      </pReference>
   </content>
   <content>
      <extension url="urn:ehealth_connector:FhirExtension:useAsImmunizationRecommendation">
         <valueString value="dummy" />
      </extension>
      <pReference>
         <reference value="#17" />
      </pReference>
   </content>
   <content>
      <extension url="urn:ehealth_connector:FhirExtension:useAsActiveProblemConcern">
         <valueString value="975b8190-7754-0776-cc7c-8b1126624cbc" />
      </extension>
      <pReference>
         <reference value="#19" />
      </pReference>
   </content>
   <content>
      <extension url="urn:ehealth_connector:FhirExtension:useAsPastProblemConcern">
         <valueString value="975b8370-7754-0776-9b19-8b1126624cbc" />
      </extension>
      <extension url="urn:ehealth_connector:FhirExtension:useAsPastProblemConcern">
         <valueDate value="2015-10-31" />
      </extension>
      <pReference>
         <reference value="#20" />
      </pReference>
   </content>
   <content>
      <extension url="urn:ehealth_connector:FhirExtension:useAsAllergyProblemConcern">
         <valueString value="975b84a6-7754-0776-e83e-8b1126624cbc" />
      </extension>
      <pReference>
         <reference value="#21" />
      </pReference>
   </content>
   <content>
      <extension url="urn:ehealth_connector:FhirExtension:useAsLaboratoryObservation">
         <valueString value="dummy" />
      </extension>
      <pReference>
         <reference value="#22" />
      </pReference>
   </content>
   <content>
      <extension url="urn:ehealth_connector:FhirExtension:useAsLaboratoryObservation">
         <valueString value="dummy" />
      </extension>
      <pReference>
         <reference value="#25" />
      </pReference>
   </content>
   <content>
      <extension url="urn:ehealth_connector:FhirExtension:urnUseAsPregnancyObservation">
         <valueString value="dummy" />
      </extension>
      <pReference>
         <reference value="#27" />
      </pReference>
   </content>
   <content>
      <extension url="urn:ehealth_connector:FhirExtension:urnUseAsPregnancyObservation">
         <valueString value="dummy" />
      </extension>
      <pReference>
         <reference value="#29" />
      </pReference>
   </content>
   <content>
      <extension url="urn:ehealth_connector:FhirExtension:urnUseAsPregnancyObservation">
         <valueString value="dummy" />
      </extension>
      <pReference>
         <reference value="#31" />
      </pReference>
   </content>
   <content>
      <extension url="urn:ehealth_connector:FhirExtension:useAsImmunizationRecommendation">
         <valueString value="dummy" />
      </extension>
      <pReference>
         <reference value="#33" />
      </pReference>
   </content>
   <content>
      <extension url="urn:ehealth_connector:FhirExtension:useAsImmunizationRecommendation">
         <valueString value="dummy" />
      </extension>
      <pReference>
         <reference value="#41" />
      </pReference>
   </content>
   <content>
      <extension url="urn:ehealth_connector:FhirExtension:useAsComment">
         <valueString value="dummy" />
      </extension>
      <pReference>
         <reference value="#46" />
      </pReference>
   </content>
</DocumentManifest>