<DocumentManifest xmlns="http://hl7.org/fhir">
   <meta>
      <versionId value="1" />
   </meta>
   <language value="de-CH" />
   <contained>
      <Basic xmlns="http://hl7.org/fhir">
         <id value="1" />
         <code>
            <coding>
               <code value="CHE" />
            </coding>
         </code>
      </Basic>
   </contained>
   <contained>
      <Basic xmlns="http://hl7.org/fhir">
         <id value="2" />
         <code>
            <coding>
               <system value="urn:oid:2.16.756.5.30.1.1.1.1" />
               <code value="hiv" />
            </coding>
         </code>
      </Basic>
   </contained>
   <contained>
      <Basic xmlns="http://hl7.org/fhir">
         <id value="3" />
         <code>
            <coding>
               <system value="urn:oid:2.16.840.1.113883.5.25" />
               <code value="R" />
               <display value="Restricted" />
            </coding>
         </code>
      </Basic>
   </contained>
   <contained>
      <Patient xmlns="http://hl7.org/fhir">
         <id value="4" />
         <name>
            <given value="Hans" />
         </name>
         <telecom>
            <system value="phone" />
            <value value="tel:+41.32.685.12.34" />
            <use value="home" />
         </telecom>
         <gender value="female" />
         <birthDate value="1991-01-01" />
         <address>
            <use value="home" />
            <line value="Leidensweg 10" />
            <city value="Specimendorf" />
            <postalCode value="9876" />
            <country value="CHE" />
         </address>
      </Patient>
   </contained>
   <contained>
      <Organization xmlns="http://hl7.org/fhir">
         <id value="5" />
         <identifier>
            <system value="urn:oid:2.51.1.3" />
            <value value="7606666666666" />
         </identifier>
         <name value="SRK LIS" />
         <telecom>
            <system value="phone" />
            <value value="tel:+41.31.919.09.09" />
            <use value="work" />
         </telecom>
         <telecom>
            <system value="fax" />
            <value value="fax:+41.61.486.11.12" />
            <use value="work" />
         </telecom>
         <address>
            <use value="work" />
            <line value="Bernstrasse 162" />
            <city value="Zollikofen" />
            <postalCode value="3052" />
         </address>
      </Organization>
   </contained>
   <contained>
      <Organization xmlns="http://hl7.org/fhir">
         <id value="6" />
         <identifier>
            <system value="urn:oid:2.51.1.3" />
            <value value="7609999999999" />
         </identifier>
         <name value="Gruppenpraxis CH" />
         <telecom>
            <system value="phone" />
            <value value="tel:+41.32.234.55.66" />
            <use value="work" />
         </telecom>
         <telecom>
            <system value="fax" />
            <value value="fax:+41.32.234.66.77" />
            <use value="work" />
         </telecom>
         <telecom>
            <system value="email" />
            <value value="mailto:bereit@gruppenpraxis.ch" />
            <use value="work" />
         </telecom>
         <telecom>
            <system value="url" />
            <value value="http://www.gruppenpraxis.ch" />
            <use value="work" />
         </telecom>
         <address>
            <use value="work" />
            <line value="Doktorgasse 2" />
            <city value="Musterhausen" />
            <postalCode value="8888" />
            <country value="CHE" />
         </address>
      </Organization>
   </contained>
   <contained>
      <Person xmlns="http://hl7.org/fhir">
         <id value="7" />
         <identifier>
            <system value="urn:oid:2.51.1.3" />
            <value value="7607777777777" />
         </identifier>
         <name>
            <family value="Bereit" />
            <given value="Allzeit" />
            <prefix value="Dr. med." />
            <suffix value="Facharzt für Allgemeine Medizin" />
         </name>
         <telecom>
            <system value="phone" />
            <value value="tel:+41.32.234.55.66" />
         </telecom>
         <telecom>
            <system value="fax" />
            <value value="fax:+41.32.234.66.77" />
         </telecom>
         <telecom>
            <system value="email" />
            <value value="mailto:bereit@gruppenpraxis.ch" />
         </telecom>
         <telecom>
            <system value="url" />
            <value value="http://www.gruppenpraxis.ch" />
         </telecom>
         <address>
            <use value="work" />
            <line value="Doktorgasse 2" />
            <city value="Musterhausen" />
            <postalCode value="8888" />
         </address>
         <managingOrganization>
            <reference value="#6" />
         </managingOrganization>
      </Person>
   </contained>
   <contained>
      <Organization xmlns="http://hl7.org/fhir">
         <id value="8" />
         <identifier>
            <system value="urn:oid:1.3.6.1.4.1.19376.1.3.4" />
            <value value="0000" />
         </identifier>
         <name value="Bundesamt für Gesundheit" />
         <telecom>
            <system value="phone" />
            <value value="tel:+41.58.462.21.11" />
            <use value="work" />
         </telecom>
         <telecom>
            <system value="fax" />
            <value value="fax:+41.58.462.21.11" />
            <use value="work" />
         </telecom>
         <address>
            <use value="work" />
            <line value="Ärztlicher Dienst Meldesystem" />
            <city value="Bern" />
            <postalCode value="3003" />
         </address>
      </Organization>
   </contained>
   <contained>
      <Observation xmlns="http://hl7.org/fhir">
         <id value="9" />
         <status value="final" />
         <category>
            <coding>
               <system value="urn:oid:dummy" />
               <code value="dummy" />
               <display value="TEST&lt;table>&lt;tbody>&lt;tr>&lt;th>Beobachtung&lt;/th>&lt;th>Resultat&lt;/th>&lt;th>Code&lt;/th>&lt;th>Codesystem&lt;/th>&lt;th>Kommentar&lt;/th>&lt;/tr>&lt;tr>&lt;td>HIV1RNA&lt;/td>&lt;td>pos&lt;/td>&lt;td>24013-5&lt;/td>&lt;td>LOINC&lt;/td>&lt;td/>&lt;/tr>&lt;tr>&lt;td>ViralLoad&lt;/td>&lt;td>121365[copies/ml]&lt;/td>&lt;td/>&lt;td/>&lt;td/>&lt;/tr>&lt;tr>&lt;td>Recency&lt;/td>&lt;td>No&lt;/td>&lt;td>N&lt;/td>&lt;td>HL7.chStandardCDABodySelektion&lt;/td>&lt;td/>&lt;/tr>&lt;tr>&lt;td>Inno-LiaBandesgp120&lt;/td>&lt;td>3&lt;/td>&lt;td/>&lt;td>LOINC&lt;/td>&lt;td/>&lt;/tr>&lt;tr>&lt;td>Inno-LiaBandesgp105&lt;/td>&lt;td>0&lt;/td>&lt;td/>&lt;td>LOINC&lt;/td>&lt;td/>&lt;/tr>&lt;tr>&lt;td>Inno-LiaBandep17&lt;/td>&lt;td>1&lt;/td>&lt;td>9663-6&lt;/td>&lt;td>LOINC&lt;/td>&lt;td/>&lt;/tr>&lt;tr>&lt;td>Inno-LiaBandep24&lt;/td>&lt;td>2&lt;/td>&lt;td>9664-4&lt;/td>&lt;td>LOINC&lt;/td>&lt;td/>&lt;/tr>&lt;tr>&lt;td>Inno-LiaBandep31&lt;/td>&lt;td>3&lt;/td>&lt;td>9666-9&lt;/td>&lt;td>LOINC&lt;/td>&lt;td/>&lt;/tr>&lt;tr>&lt;td>Inno-LiaBandegp36&lt;/td>&lt;td>0&lt;/td>&lt;td/>&lt;td>LOINC&lt;/td>&lt;td/>&lt;/tr>&lt;tr>&lt;td>Inno-LiaBandegp41&lt;/td>&lt;td>4&lt;/td>&lt;td>9662-8&lt;/td>&lt;td>LOINC&lt;/td>&lt;td/>&lt;/tr>&lt;/tbody>&lt;/table>" />
            </coding>
         </category>
         <code>
            <coding>
               <system value="urn:oid:2.16.840.1.113883.6.1" />
               <code value="18725-2" />
               <display value="MICROBIOLOGY STUDIES" />
            </coding>
         </code>
      </Observation>
   </contained>
   <contained>
      <Observation xmlns="http://hl7.org/fhir">
         <id value="10" />
         <identifier>
            <system value="urn:oid:2.16.756.5.30.1.1.1.1.3.3.1" />
            <value value="0F55642B-E3DB-48B2-92FA-B05E44D28C23" />
         </identifier>
         <status value="unknown" />
         <code>
            <coding>
               <system value="urn:oid:2.999" />
               <code value="dummy" />
               <display value="dummy code to make FHIR resource valid" />
            </coding>
         </code>
         <effectiveDateTime value="2012-12-01T00:00:00+01:00" />
      </Observation>
   </contained>
   <contained>
      <Observation xmlns="http://hl7.org/fhir">
         <id value="11" />
         <identifier>
            <system value="urn:oid:2.16.756.5.30.1.129.1.2.1" />
            <value value="EFE088BD-DAB8-4F61-BBFA-35D40C691E3A" />
         </identifier>
         <identifier>
            <system value="urn:oid:2.16.756.5.30.1.129.1.2.1" />
            <value value="EFE088BD-DAB8-4F61-BBFA-35D40C691E3A" />
         </identifier>
         <status value="unknown" />
         <category>
            <coding>
               <system value="urn:oid:dummy" />
               <code value="dummy" />
               <display value="#io1" />
            </coding>
         </category>
         <code>
            <coding>
               <system value="urn:oid:2.16.840.1.113883.5.1008" />
               <code value="ASKU" />
               <display value="Asked but unknwon" />
            </coding>
         </code>
         <related>
            <target>
               <extension url="urn:ehealth_connector:FhirExtension:useAsLaboratoryObservations">
                  <valueString value="dummy" />
               </extension>
               <reference value="#12" />
            </target>
         </related>
      </Observation>
   </contained>
   <contained>
      <Observation xmlns="http://hl7.org/fhir">
         <id value="12" />
         <status value="unknown" />
         <code>
            <coding>
               <system value="urn:oid:2.16.840.1.113883.6.1" />
               <code value="12893-4" />
               <display value="HIV 1 gp105 Ab [Presence] in Serum by Immunoblot (IB)" />
            </coding>
         </code>
         <issued value="2012-12-01T00:00:00.000+01:00" />
         <valueQuantity>
            <value value="0" />
            <unit value="#1" />
         </valueQuantity>
      </Observation>
   </contained>
   <contained>
      <Observation xmlns="http://hl7.org/fhir">
         <id value="13" />
         <identifier>
            <system value="urn:oid:2.16.756.5.30.1.129.1.2.1" />
            <value value="12-3456" />
         </identifier>
         <status value="unknown" />
         <category>
            <coding>
               <system value="urn:oid:dummy" />
               <code value="dummy" />
               <display value="statusCode=completed" />
            </coding>
         </category>
         <code>
            <coding>
               <system value="urn:oid:2.16.840.1.113883.6.1" />
               <code value="18725-2" />
               <display value="MICROBIOLOGY STUDIES" />
            </coding>
         </code>
         <related>
            <target>
               <extension url="urn:ehealth_connector:FhirExtension:useAsLaboratoryObservations">
                  <valueString value="dummy" />
               </extension>
               <reference value="#14" />
            </target>
         </related>
         <related>
            <target>
               <extension url="urn:ehealth_connector:FhirExtension:useAsLaboratoryObservations">
                  <valueString value="dummy" />
               </extension>
               <reference value="#15" />
            </target>
         </related>
         <related>
            <target>
               <extension url="urn:ehealth_connector:FhirExtension:useAsLaboratoryObservations">
                  <valueString value="dummy" />
               </extension>
               <reference value="#16" />
            </target>
         </related>
         <related>
            <target>
               <extension url="urn:ehealth_connector:FhirExtension:useAsLaboratoryObservations">
                  <valueString value="dummy" />
               </extension>
               <reference value="#17" />
            </target>
         </related>
         <related>
            <target>
               <extension url="urn:ehealth_connector:FhirExtension:useAsLaboratoryObservations">
                  <valueString value="dummy" />
               </extension>
               <reference value="#18" />
            </target>
         </related>
         <related>
            <target>
               <extension url="urn:ehealth_connector:FhirExtension:useAsLaboratoryObservations">
                  <valueString value="dummy" />
               </extension>
               <reference value="#19" />
            </target>
         </related>
         <related>
            <target>
               <extension url="urn:ehealth_connector:FhirExtension:useAsLaboratoryObservations">
                  <valueString value="dummy" />
               </extension>
               <reference value="#20" />
            </target>
         </related>
         <related>
            <target>
               <extension url="urn:ehealth_connector:FhirExtension:useAsLaboratoryObservations">
                  <valueString value="dummy" />
               </extension>
               <reference value="#21" />
            </target>
         </related>
      </Observation>
   </contained>
   <contained>
      <Observation xmlns="http://hl7.org/fhir">
         <id value="14" />
         <status value="unknown" />
         <code>
            <coding>
               <system value="urn:oid:2.16.840.1.113883.6.1" />
               <code value="24013-5" />
               <display value="HIV 1 RNA" />
            </coding>
            <coding>
               <system value="urn:oid:2.16.756.5.30.1.127.3.2.20121101.2" />
               <code value="24013-5" />
               <display value="HIV-1" />
            </coding>
         </code>
         <issued value="2012-12-01T00:00:00.000+01:00" />
         <valueQuantity>
            <value value="121365" />
            <unit value="{Log_copies}/mL" />
         </valueQuantity>
         <interpretation>
            <coding>
               <system value="urn:oid:2.16.840.1.113883.5.83" />
               <code value="POS" />
               <display value="POSITIVE" />
            </coding>
         </interpretation>
      </Observation>
   </contained>
   <contained>
      <Observation xmlns="http://hl7.org/fhir">
         <id value="15" />
         <status value="unknown" />
         <code>
            <coding>
               <system value="urn:oid:2.16.840.1.113883.6.1" />
               <code value="35441-5" />
               <display value="HIV 1 gp120 Ab [Presence] in Saliva (oral fluid) by Immunoblot (IB)" />
            </coding>
         </code>
         <issued value="2012-12-01T00:00:00.000+01:00" />
         <valueQuantity>
            <value value="3" />
            <unit value="#1" />
         </valueQuantity>
      </Observation>
   </contained>
   <contained>
      <Observation xmlns="http://hl7.org/fhir">
         <id value="16" />
         <status value="unknown" />
         <code>
            <coding>
               <system value="urn:oid:2.16.840.1.113883.6.1" />
               <code value="12893-4" />
               <display value="HIV 1 gp105 Ab [Presence] in Serum by Immunoblot (IB)" />
            </coding>
         </code>
         <issued value="2012-12-01T00:00:00.000+01:00" />
         <valueQuantity>
            <value value="0" />
            <unit value="#1" />
         </valueQuantity>
      </Observation>
   </contained>
   <contained>
      <Observation xmlns="http://hl7.org/fhir">
         <id value="17" />
         <status value="unknown" />
         <code>
            <coding>
               <system value="urn:oid:2.16.840.1.113883.6.1" />
               <code value="10902-5" />
               <display value="HIV 2 gp36 Ab [Presence] in Serum by Immunoblot (IB)" />
            </coding>
         </code>
         <issued value="2012-12-01T00:00:00.000+01:00" />
         <valueQuantity>
            <value value="0" />
            <unit value="#1" />
         </valueQuantity>
      </Observation>
   </contained>
   <contained>
      <Observation xmlns="http://hl7.org/fhir">
         <id value="18" />
         <status value="unknown" />
         <code>
            <coding>
               <system value="urn:oid:2.16.840.1.113883.6.1" />
               <code value="9662-8" />
               <display value="HIV 1 gp41 Ab" />
            </coding>
         </code>
         <issued value="2012-12-01T00:00:00.000+01:00" />
         <valueQuantity>
            <value value="4" />
            <unit value="#1" />
         </valueQuantity>
      </Observation>
   </contained>
   <contained>
      <Observation xmlns="http://hl7.org/fhir">
         <id value="19" />
         <status value="unknown" />
         <code>
            <coding>
               <system value="urn:oid:2.16.840.1.113883.6.1" />
               <code value="9663-6" />
               <display value="HIV 1 p17 Ab" />
            </coding>
         </code>
         <issued value="2012-12-01T00:00:00.000+01:00" />
         <valueQuantity>
            <value value="1" />
            <unit value="#1" />
         </valueQuantity>
      </Observation>
   </contained>
   <contained>
      <Observation xmlns="http://hl7.org/fhir">
         <id value="20" />
         <status value="unknown" />
         <code>
            <coding>
               <system value="urn:oid:2.16.840.1.113883.6.1" />
               <code value="9664-4" />
               <display value="HIV 1 p24 Ab" />
            </coding>
         </code>
         <issued value="2012-12-01T00:00:00.000+01:00" />
         <valueQuantity>
            <value value="2" />
            <unit value="#1" />
         </valueQuantity>
      </Observation>
   </contained>
   <contained>
      <Observation xmlns="http://hl7.org/fhir">
         <id value="21" />
         <status value="unknown" />
         <code>
            <coding>
               <system value="urn:oid:2.16.840.1.113883.6.1" />
               <code value="9666-9" />
               <display value="HIV 1 p31 Ab" />
            </coding>
         </code>
         <issued value="2012-12-01T00:00:00.000+01:00" />
         <valueQuantity>
            <value value="3" />
            <unit value="#1" />
         </valueQuantity>
      </Observation>
   </contained>
   <identifier>
      <system value="urn:oid:2.16.756.5.30.1.1.1.1" />
      <value value="5eafa0ba-7ea6-2b7a-4ac4-7dc3f38101dd" />
   </identifier>
   <identifier>
      <system value="urn:oid:2.16.756.5.30.1.1.1.1" />
      <value value="5eafa0ba-7ea6-2b7a-4ac4-7dc3f38101dd" />
   </identifier>
   <status value="current" />
   <created value="2017-04-24T00:00:00+02:00" />
   <content>
      <pReference>
         <display value="dummy" />
      </pReference>
   </content>
   <content>
      <pReference>
         <reference value="#1" />
      </pReference>
   </content>
   <content>
      <pReference>
         <reference value="#2" />
      </pReference>
   </content>
   <content>
      <pReference>
         <reference value="#3" />
      </pReference>
   </content>
   <content>
      <pReference>
         <reference value="#4" />
      </pReference>
   </content>
   <content>
      <extension url="urn:ehealth_connector:FhirExtension:useAsAuthor">
         <valueTime value="20160427224514+0200" />
      </extension>
      <pReference>
         <reference value="#5" />
      </pReference>
   </content>
   <content>
      <extension url="urn:ehealth_connector:FhirExtension:useAsCustodian">
         <valueString value="dummy" />
      </extension>
      <pReference>
         <reference value="#6" />
      </pReference>
   </content>
   <content>
      <extension url="urn:ehealth_connector:FhirExtension:useAsReferralOrderingPhysician">
         <valueString value="dummy" />
      </extension>
      <pReference>
         <reference value="#7" />
      </pReference>
   </content>
   <content>
      <extension url="urn:ehealth_connector:FhirExtension:useAsInformationRecipient">
         <valueString value="dummy" />
      </extension>
      <pReference>
         <reference value="#8" />
      </pReference>
   </content>
   <content>
      <extension url="urn:ehealth_connector:FhirExtension:useAsLaboratorySpecialtySection">
         <valueString value="dummy" />
      </extension>
      <pReference>
         <reference value="#9" />
      </pReference>
   </content>
   <content>
      <extension url="urn:ehealth_connector:FhirExtension:useAsSpecimenCollection">
         <valueString value="dummy" />
      </extension>
      <pReference>
         <reference value="#10" />
      </pReference>
   </content>
   <content>
      <extension url="urn:ehealth_connector:FhirExtension:useAsLaboratoryIsolateOrganizer">
         <valueString value="dummy" />
      </extension>
      <pReference>
         <reference value="#11" />
      </pReference>
   </content>
   <content>
      <extension url="urn:ehealth_connector:FhirExtension:useAsLaboratoryBatteryOrganizer">
         <valueString value="dummy" />
      </extension>
      <pReference>
         <reference value="#13" />
      </pReference>
   </content>
</DocumentManifest>